Data from QEP037381__85__10-26-21-074.txt Node

Date: Fri Apr 21 10:26:21 EDT 2023
User: dcclab
Spectrometer: QEP03738
Trigger mode: 4
Integration Time (sec): 1.000000E1
Scans to average: 1
Electric dark correction enabled: true
Nonlinearity correction enabled: false
Boxcar width: 0
XAxis mode: Wavelengths
Number of Pixels in Spectrum: 1044
>>>>>Begin Spectral Data<<<<<
784.041	12
784.3	-1
784.558	-3
784.817	-1
785.075	224
785.334	207
785.592	198
785.851	198
786.109	234
786.368	240
786.626	256
786.884	275
787.143	261
787.401	223
787.659	280
787.917	260
788.175	289
788.433	270
788.691	257
788.949	285
789.207	313
789.465	262
789.723	264
789.98	247
790.238	329
790.496	296
790.753	286
791.011	350
791.268	302
791.526	309
791.783	326
792.041	322
792.298	253
792.556	320
792.813	308
793.07	286
793.327	295
793.584	379
793.841	287
794.099	319
794.356	380
794.613	289
794.869	328
795.126	306
795.383	285
795.64	312
795.897	276
796.153	330
796.41	307
796.667	297
796.923	310
797.18	294
797.436	340
797.693	291
797.949	339
798.206	369
798.462	270
798.718	339
798.974	291
799.231	352
799.487	325
799.743	309
799.999	345
800.255	339
800.511	311
800.767	336
801.023	315
801.279	320
801.534	332
801.79	343
802.046	294
802.302	353
802.557	330
802.813	348
803.068	299
803.324	332
803.579	314
803.835	302
804.09	345
804.345	292
804.601	264
804.856	307
805.111	322
805.366	313
805.621	304
805.876	329
806.131	316
806.386	300
806.641	275
806.896	295
807.151	365
807.406	325
807.661	330
807.915	302
808.17	321
808.425	342
808.679	279
808.934	372
809.188	294
809.443	339
809.697	372
809.951	292
810.206	298
810.46	345
810.714	337
810.968	351
811.223	275
811.477	304
811.731	342
811.985	272
812.239	235
812.493	284
812.747	317
813	266
813.254	335
813.508	353
813.762	295
814.015	310
814.269	310
814.522	336
814.776	318
815.03	341
815.283	328
815.536	337
815.79	336
816.043	341
816.296	336
816.55	322
816.803	322
817.056	401
817.309	334
817.562	345
817.815	375
818.068	286
818.321	297
818.574	282
818.827	334
819.079	290
819.332	414
819.585	325
819.838	395
820.09	303
820.343	372
820.595	291
820.848	329
821.1	345
821.353	314
821.605	314
821.857	367
822.11	283
822.362	291
822.614	282
822.866	338
823.118	261
823.37	380
823.622	320
823.874	306
824.126	352
824.378	275
824.63	307
824.882	332
825.134	314
825.385	361
825.637	343
825.888	308
826.14	324
826.392	296
826.643	299
826.895	371
827.146	317
827.397	303
827.649	388
827.9	295
828.151	286
828.402	276
828.653	324
828.905	328
829.156	374
829.407	290
829.658	316
829.909	364
830.159	334
830.41	341
830.661	348
830.912	342
831.162	316
831.413	303
831.664	346
831.914	338
832.165	329
832.415	333
832.666	329
832.916	344
833.167	310
833.417	388
833.667	346
833.917	325
834.168	381
834.418	349
834.668	320
834.918	279
835.168	303
835.418	265
835.668	322
835.918	347
836.167	338
836.417	283
836.667	359
836.917	372
837.166	334
837.416	358
837.666	362
837.915	325
838.165	337
838.414	295
838.663	276
838.913	335
839.162	289
839.411	385
839.661	312
839.91	330
840.159	317
840.408	331
840.657	325
840.906	334
841.155	353
841.404	322
841.653	330
841.902	296
842.15	356
842.399	346
842.648	319
842.897	351
843.145	280
843.394	299
843.642	311
843.891	358
844.139	338
844.388	302
844.636	268
844.884	310
845.133	307
845.381	312
845.629	345
845.877	295
846.125	306
846.373	341
846.621	302
846.869	357
847.117	323
847.365	323
847.613	341
847.861	343
848.108	384
848.356	348
848.604	305
848.851	335
849.099	319
849.346	320
849.594	333
849.841	355
850.089	318
850.336	293
850.583	310
850.831	316
851.078	329
851.325	308
851.572	364
851.819	366
852.066	333
852.313	321
852.56	286
852.807	285
853.054	298
853.301	323
853.548	311
853.794	391
854.041	327
854.288	285
854.534	389
854.781	321
855.028	315
855.274	386
855.52	325
855.767	293
856.013	363
856.26	624
856.506	318
856.752	363
856.998	325
857.244	308
857.49	359
857.736	330
857.982	341
858.228	361
858.474	298
858.72	331
858.966	348
859.212	342
859.458	330
859.703	355
859.949	316
860.195	369
860.44	359
860.686	312
860.931	392
861.177	318
861.422	390
861.667	336
861.913	338
862.158	349
862.403	369
862.648	365
862.893	389
863.138	336
863.384	306
863.629	358
863.873	372
864.118	327
864.363	271
864.608	346
864.853	365
865.098	339
865.342	362
865.587	341
865.832	378
866.076	352
866.321	314
866.565	329
866.81	274
867.054	332
867.298	341
867.543	299
867.787	366
868.031	340
868.275	351
868.519	333
868.764	355
869.008	325
869.252	375
869.496	336
869.739	337
869.983	393
870.227	348
870.471	312
870.715	353
870.958	353
871.202	312
871.446	325
871.689	310
871.933	327
872.176	341
872.42	326
872.663	326
872.906	376
873.15	328
873.393	269
873.636	374
873.879	367
874.122	394
874.366	348
874.609	362
874.852	335
875.095	345
875.337	328
875.58	287
875.823	343
876.066	377
876.309	404
876.551	315
876.794	287
877.037	388
877.279	297
877.522	322
877.764	366
878.007	329
878.249	341
878.491	297
878.734	384
878.976	349
879.218	313
879.46	381
879.702	384
879.945	370
880.187	341
880.429	377
880.671	365
880.912	382
881.154	383
881.396	280
881.638	351
881.88	345
882.121	306
882.363	342
882.605	395
882.846	358
883.088	386
883.329	323
883.571	300
883.812	313
884.053	320
884.295	324
884.536	415
884.777	321
885.018	331
885.259	372
885.5	299
885.742	508
885.982	370
886.223	309
886.464	335
886.705	302
886.946	349
887.187	281
887.428	369
887.668	324
887.909	330
888.15	289
888.39	360
888.631	393
888.871	368
889.111	366
889.352	357
889.592	341
889.833	344
890.073	345
890.313	429
890.553	306
890.793	351
891.033	329
891.273	340
891.513	353
891.753	417
891.993	353
892.233	372
892.473	428
892.713	366
892.952	329
893.192	360
893.432	327
893.671	365
893.911	351
894.15	365
894.39	305
894.629	343
894.869	373
895.108	362
895.347	333
895.587	362
895.826	327
896.065	305
896.304	366
896.543	383
896.782	290
897.021	355
897.26	346
897.499	396
897.738	414
897.977	349
898.216	358
898.454	346
898.693	332
898.932	379
899.17	346
899.409	363
899.647	350
899.886	343
900.124	368
900.363	328
900.601	345
900.839	347
901.078	354
901.316	350
901.554	354
901.792	353
902.03	316
902.268	343
902.506	386
902.744	327
902.982	386
903.22	317
903.458	339
903.695	378
903.933	387
904.171	323
904.409	348
904.646	384
904.884	361
905.121	418
905.359	388
905.596	380
905.833	342
906.071	347
906.308	408
906.545	357
906.783	314
907.02	344
907.257	312
907.494	343
907.731	365
907.968	372
908.205	355
908.442	323
908.679	368
908.915	369
909.152	358
909.389	304
909.626	347
909.862	311
910.099	362
910.335	401
910.572	307
910.808	368
911.045	344
911.281	333
911.518	417
911.754	360
911.99	379
912.226	354
912.463	324
912.699	354
912.935	359
913.171	347
913.407	336
913.643	394
913.879	365
914.114	366
914.35	353
914.586	362
914.822	344
915.057	439
915.293	324
915.529	318
915.764	419
916	394
916.235	372
916.471	396
916.706	317
916.941	347
917.177	344
917.412	387
917.647	387
917.882	343
918.117	413
918.352	377
918.588	436
918.823	361
919.057	354
919.292	297
919.527	430
919.762	361
919.997	425
920.232	366
920.466	425
920.701	310
920.935	390
921.17	364
921.405	324
921.639	406
921.873	360
922.108	393
922.342	404
922.576	345
922.811	347
923.045	394
923.279	425
923.513	316
923.747	420
923.981	392
924.215	361
924.449	381
924.683	328
924.917	346
925.151	354
925.385	436
925.618	401
925.852	392
926.086	329
926.319	389
926.553	370
926.786	386
927.02	377
927.253	425
927.486	412
927.72	340
927.953	423
928.186	356
928.42	397
928.653	354
928.886	338
929.119	391
929.352	389
929.585	394
929.818	361
930.051	396
930.284	414
930.516	338
930.749	356
930.982	429
931.215	407
931.447	358
931.68	366
931.912	366
932.145	363
932.377	393
932.61	505
932.842	313
933.074	397
933.307	344
933.539	449
933.771	413
934.003	364
934.236	450
934.468	473
934.7	361
934.932	414
935.164	364
935.395	348
935.627	384
935.859	404
936.091	349
936.323	407
936.554	432
936.786	392
937.017	347
937.249	402
937.481	340
937.712	406
937.943	385
938.175	372
938.406	371
938.637	449
938.869	342
939.1	397
939.331	373
939.562	422
939.793	391
940.024	415
940.255	438
940.486	390
940.717	388
940.948	401
941.179	357
941.409	387
941.64	394
941.871	393
942.102	359
942.332	373
942.563	420
942.793	387
943.024	346
943.254	382
943.484	410
943.715	439
943.945	401
944.175	349
944.405	326
944.636	342
944.866	391
945.096	400
945.326	352
945.556	398
945.786	417
946.016	377
946.245	342
946.475	372
946.705	375
946.935	388
947.164	400
947.394	369
947.624	389
947.853	426
948.083	408
948.312	366
948.542	332
948.771	344
949	361
949.23	376
949.459	365
949.688	447
949.917	394
950.146	409
950.375	451
950.604	365
950.833	465
951.062	437
951.291	401
951.52	372
951.749	401
951.978	346
952.206	378
952.435	365
952.664	433
952.892	418
953.121	412
953.349	449
953.578	431
953.806	414
954.035	373
954.263	411
954.491	377
954.719	426
954.948	384
955.176	382
955.404	335
955.632	418
955.86	418
956.088	420
956.316	453
956.544	463
956.772	403
956.999	392
957.227	491
957.455	405
957.683	430
957.91	388
958.138	403
958.365	403
958.593	408
958.82	356
959.048	454
959.275	419
959.502	404
959.73	394
959.957	436
960.184	447
960.411	391
960.638	473
960.865	418
961.092	469
961.319	357
961.546	455
961.773	459
962	425
962.227	464
962.454	435
962.68	439
962.907	451
963.134	415
963.36	439
963.587	474
963.813	424
964.04	473
964.266	423
964.493	500
964.719	481
964.945	497
965.171	397
965.398	472
965.624	490
965.85	417
966.076	447
966.302	486
966.528	450
966.754	482
966.98	485
967.206	483
967.431	420
967.657	511
967.883	492
968.109	476
968.334	443
968.56	426
968.785	459
969.011	418
969.236	483
969.462	430
969.687	461
969.912	492
970.138	507
970.363	437
970.588	483
970.813	470
971.038	436
971.263	483
971.488	484
971.713	510
971.938	515
972.163	425
972.388	463
972.613	455
972.838	463
973.062	470
973.287	470
973.512	402
973.736	473
973.961	455
974.185	447
974.41	483
974.634	387
974.858	432
975.083	477
975.307	507
975.531	441
975.755	401
975.98	442
976.204	375
976.428	398
976.652	402
976.876	393
977.1	437
977.324	408
977.547	458
977.771	458
977.995	439
978.219	395
978.442	516
978.666	459
978.89	446
979.113	468
979.337	459
979.56	431
979.783	501
980.007	412
980.23	459
980.453	426
980.677	462
980.9	466
981.123	363
981.346	484
981.569	471
981.792	489
982.015	446
982.238	420
982.461	444
982.684	436
982.907	423
983.129	416
983.352	477
983.575	473
983.797	481
984.02	437
984.242	432
984.465	466
984.687	491
984.91	524
985.132	481
985.354	506
985.577	488
985.799	485
986.021	423
986.243	456
986.465	470
986.687	529
986.909	561
987.131	501
987.353	471
987.575	497
987.797	471
988.019	414
988.241	479
988.462	450
988.684	513
988.906	543
989.127	562
989.349	449
989.57	479
989.792	532
990.013	537
990.234	553
990.456	570
990.677	566
990.898	507
991.119	508
991.341	538
991.562	481
991.783	535
992.004	486
992.225	461
992.446	537
992.667	443
992.887	549
993.108	449
993.329	582
993.55	529
993.77	487
993.991	493
994.212	527
994.432	533
994.653	549
994.873	544
995.093	446
995.314	478
995.534	571
995.754	590
995.975	613
996.195	500
996.415	568
996.635	536
996.855	542
997.075	529
997.295	520
997.515	520
997.735	574
997.955	556
998.174	536
998.394	498
998.614	560
998.834	515
999.053	584
999.273	556
999.492	621
999.712	577
999.931	551
1000.151	600
1000.37	577
1000.589	635
1000.809	576
1001.028	672
1001.247	639
1001.466	528
1001.685	691
1001.904	635
1002.123	644
1002.342	653
1002.561	595
1002.78	624
1002.999	679
1003.218	656
1003.436	631
1003.655	679
1003.874	627
1004.092	665
1004.311	686
1004.53	656
1004.748	734
1004.966	675
1005.185	718
1005.403	705
1005.622	687
1005.84	754
1006.058	658
1006.276	680
1006.494	1175
1006.712	694
1006.931	741
1007.149	655
1007.367	661
1007.584	691
1007.802	710
1008.02	650
1008.238	741
1008.456	713
1008.673	583
1008.891	692
1009.109	621
1009.326	655
1009.544	737
1009.761	602
1009.979	670
1010.196	641
1010.413	677
1010.631	652
1010.848	667
1011.065	669
1011.282	615
1011.5	541
1011.717	673
1011.934	625
1012.151	663
1012.368	667
1012.585	593
1012.801	630
1013.018	624
1013.235	582
1013.452	601
1013.669	598
1013.885	572
1014.102	611
1014.318	563
1014.535	535
1014.751	566
1014.968	564
1015.184	602
1015.401	527
1015.617	591
1015.833	527
1016.049	558
1016.266	541
1016.482	565
1016.698	499
1016.914	563
1017.13	520
1017.346	525
1017.562	586
1017.778	506
1017.993	481
1018.209	536
1018.425	534
1018.641	498
1018.856	476
1019.072	504
1019.288	543
1019.503	509
1019.719	429
1019.934	464
1020.149	551
1020.365	487
1020.58	467
1020.795	543
1021.011	485
1021.226	504
1021.441	553
1021.656	489
1021.871	446
1022.086	462
1022.301	457
1022.516	478
1022.731	543
1022.946	459
1023.16	473
1023.375	450
1023.59	461
1023.804	435
1024.019	545
1024.234	436
1024.448	472
1024.663	410
1024.877	444
1025.092	483
1025.306	493
1025.52	406
1025.734	519
1025.949	459
1026.163	425
1026.377	394
1026.591	444
1026.805	387
1027.019	399
1027.233	359
1027.447	310
1027.661	431
1027.875	371
1028.088	397
1028.302	338
1028.516	348
1028.73	356
1028.943	356
1029.157	324
1029.37	307
1029.584	-1
1029.797	-1
1030.011	-4
1030.224	-1
